Accel_X,Accel_Y,Accel_Z,Gyro_X,Gyro_Y,Gyro_Z
-0.606,-0.369,9.996,-0.976,-3.171,6.159
-0.160,-0.587,10.157,0.244,10.488,4.390
0.000,-0.536,9.988,2.317,16.280,2.988
0.241,-0.680,9.793,0.793,13.049,1.951
0.193,-0.743,9.875,-2.866,6.890,3.415
-0.127,-0.549,10.002,-5.183,4.268,4.756
-0.054,-0.640,9.833,-7.073,4.268,6.220
0.257,-0.857,9.490,-10.427,2.805,8.720
0.187,-0.757,9.505,-12.561,-1.951,10.244
0.076,-0.739,9.591,-15.305,-6.220,12.134
0.199,-0.859,9.782,-21.037,-5.305,12.195
0.748,-0.930,9.889,-20.305,-0.366,9.451
1.271,-1.092,9.849,-19.573,2.378,5.122
0.990,-0.996,9.792,-23.902,0.244,2.073
0.888,-1.050,9.805,-24.817,-4.024,1.402
1.132,-1.205,9.883,-26.768,-5.915,-0.061
0.882,-1.103,9.951,-28.841,-8.232,-1.768
0.641,-0.939,10.237,-29.512,-13.049,-1.402
1.016,-1.185,10.246,-34.268,-12.012,-1.951
0.770,-1.405,9.831,-32.195,-3.902,-6.402
0.029,-1.061,9.765,-32.134,1.159,-7.073
-0.178,-0.867,9.643,-36.585,4.878,-6.037
-0.105,-1.069,9.388,-40.244,8.963,-6.463
-0.330,-0.866,9.561,-40.793,11.463,-6.890
-0.861,-0.578,10.229,-37.378,12.012,-7.134
-1.076,-0.086,11.060,-25.610,16.280,-7.256
-0.760,-0.163,11.039,-19.695,25.366,-6.463
-0.463,-0.546,10.359,-19.268,31.220,-2.866
-0.781,-0.362,9.915,-13.415,33.293,1.890
-0.494,-0.250,9.816,-9.695,28.841,4.817
0.193,-0.495,10.342,-9.451,19.207,4.512
0.630,-0.505,11.065,-7.683,10.793,2.378
0.524,-0.356,11.403,-0.671,5.915,3.049
0.276,-0.390,11.287,11.341,-0.122,6.341
0.002,-0.540,11.099,16.280,-4.512,6.402
-0.017,-0.841,10.943,20.610,-2.012,4.817
-0.059,-0.868,10.976,27.744,6.280,1.829
-0.107,-0.845,10.864,33.415,11.951,-1.037
0.103,-1.081,10.461,36.037,11.890,-1.341
0.259,-1.136,10.086,36.098,13.171,-0.793
0.075,-0.832,9.540,40.732,14.451,0.305
-0.037,-0.720,9.456,40.122,7.683,0.671
0.030,-0.838,9.489,38.293,-3.232,2.378
-0.029,-0.810,9.650,37.073,-7.073,1.585
0.257,-0.809,9.666,34.756,-7.195,1.037
0.846,-1.232,9.292,30.549,-10.305,3.354
0.895,-1.387,9.099,33.354,-8.537,5.061
0.622,-1.090,9.310,33.720,-4.512,2.927
0.523,-1.032,9.439,30.793,-8.232,1.159
0.625,-1.153,9.655,26.280,-10.427,-2.744
0.962,-1.277,9.804,22.683,-7.439,-7.439
1.380,-1.227,9.861,26.646,-2.805,-12.744
1.489,-1.115,9.847,25.427,-2.134,-17.195
1.227,-1.115,9.921,21.646,-8.049,-18.110
0.828,-1.222,9.779,20.549,-15.122,-17.805
0.343,-1.244,9.293,15.183,-20.122,-18.171
0.475,-1.036,9.267,8.476,-23.415,-20.366
1.023,-1.076,9.589,4.268,-20.488,-22.866
1.114,-0.991,9.847,1.646,-14.756,-22.317
0.582,-0.611,10.010,2.866,-16.341,-18.598
0.336,-0.469,9.968,2.927,-22.744,-15.183
0.285,-0.514,9.960,0.122,-17.988,-18.415
0.163,-0.394,10.050,1.707,-6.280,-21.220
0.362,-0.473,9.944,8.354,0.366,-20.427
0.450,-0.357,9.689,13.415,0.732,-19.939
-0.009,-0.059,9.563,12.927,-5.671,-18.415
-0.544,0.141,9.816,6.524,-14.390,-16.646
-0.853,0.432,10.369,2.744,-19.024,-14.634
-0.828,0.418,10.481,4.939,-19.573,-13.171
-0.980,0.365,10.130,11.463,-19.024,-10.366
-1.420,0.639,10.156,7.073,-23.354,-6.159
-1.750,0.919,10.572,4.817,-24.756,-1.890
-1.692,0.970,10.420,12.378,-16.280,0.305
-1.209,0.512,9.805,17.927,-4.695,-0.061
-0.991,0.336,9.328,19.146,3.476,-2.500
-1.259,0.618,9.547,14.695,6.524,-2.073
-1.494,0.929,9.787,13.171,5.976,5.488
-1.659,0.703,9.753,16.220,8.598,14.329
-1.510,0.652,9.634,16.890,13.049,16.890
-1.034,0.850,9.640,16.463,15.122,19.207
-0.556,0.658,10.154,15.488,17.927,22.622
-0.181,0.430,10.157,18.049,19.634,23.537
-0.091,0.165,9.893,16.341,13.171,23.415
-0.083,-0.106,9.595,14.329,5.122,22.195
-0.201,-0.411,9.533,11.220,2.378,20.000
-0.715,-0.552,9.689,6.524,-1.524,18.232
-0.678,-0.186,10.140,0.000,-4.268,17.073
-0.016,-0.181,10.063,-0.549,1.890,17.744
0.306,-0.372,9.612,0.305,7.622,18.902
0.567,-0.494,9.192,-2.256,7.622,19.085
0.945,-0.590,9.145,-8.537,3.598,16.098
0.676,-0.335,9.661,-14.268,-1.829,15.000
0.628,-0.382,10.098,-13.110,-4.573,16.951
0.953,-0.532,10.106,-10.183,-2.012,18.415
1.103,-0.426,10.118,-11.829,2.500,17.622
1.012,-0.408,9.962,-13.476,3.049,15.610
0.575,-0.527,9.644,-12.683,-2.256,17.134
0.219,-0.303,9.805,-17.073,-5.000,19.268
0.104,-0.202,9.992,-18.902,1.098,16.585
0.466,-0.399,9.907,-17.073,9.024,14.573
0.693,-0.787,9.667,-20.366,14.817,11.768
0.571,-0.757,9.499,-20.671,18.537,7.195
0.432,-0.578,9.408,-24.268,17.988,3.293
0.333,-0.573,9.384,-30.061,12.805,1.951
0.040,-0.685,9.521,-31.707,7.683,2.195
-0.271,-0.643,9.762,-40.549,3.598,5.305
0.076,-0.682,9.916,-49.024,3.841,8.293
0.611,-1.001,10.007,-54.695,8.049,6.341
0.960,-1.355,10.217,-59.695,8.476,3.598
1.229,-1.331,10.452,-60.610,10.915,-0.366
0.883,-1.027,10.454,-62.439,15.305,-1.646
0.863,-1.064,10.218,-57.927,13.110,0.610
1.104,-1.336,9.963,-58.780,7.134,1.524
1.177,-1.539,9.993,-71.951,0.549,-0.305
1.418,-1.821,10.159,-78.659,-3.841,-0.793
1.457,-1.590,10.403,-77.073,-7.622,4.878
1.256,-1.243,10.723,-72.012,-10.122,9.146
1.303,-1.132,10.481,-61.646,-7.988,7.500
1.306,-1.350,10.266,-57.866,-7.927,6.098
1.098,-1.298,10.029,-54.939,-11.037,6.951
1.135,-1.321,10.092,-48.110,-11.707,4.390
1.109,-1.396,10.019,-39.634,-7.012,0.183
0.402,-1.390,9.901,-25.305,-0.549,-3.171
-0.171,-1.346,9.889,-13.476,3.902,-5.488
0.432,-1.605,9.749,-8.963,8.415,-6.768
1.006,-1.846,9.662,-0.732,16.890,-10.793
0.976,-1.541,10.126,-3.476,14.024,-13.598
0.936,-1.636,10.241,-3.537,1.768,-9.207
0.447,-1.696,10.130,-1.159,-7.439,-3.232
-0.063,-1.420,10.263,2.073,-9.451,-0.305
-0.256,-1.344,10.264,4.146,-8.110,-1.341
-0.163,-1.438,10.180,7.378,-9.939,-3.537
0.089,-1.484,10.168,8.415,-11.341,-4.695
0.170,-1.499,10.095,11.951,-11.524,-8.049
-0.028,-1.451,10.146,10.976,-12.195,-11.220
-0.297,-1.346,10.307,14.024,-8.841,-12.805
-0.030,-1.462,10.205,18.598,-3.171,-13.720
0.335,-1.481,10.193,20.976,0.000,-13.110
0.209,-1.376,10.192,23.780,-2.134,-11.524
0.117,-1.343,10.311,24.329,-5.732,-11.585
-0.014,-1.346,10.192,27.073,-9.207,-10.854
-0.119,-1.376,9.836,26.768,-14.207,-8.537
-0.025,-1.490,9.540,25.244,-15.305,-8.232
0.098,-1.489,9.514,25.000,-12.134,-10.427
0.117,-1.443,9.680,25.854,-10.000,-13.537
-0.157,-1.210,10.133,24.878,-9.451,-15.976
-0.418,-1.076,10.087,29.634,-7.561,-15.610
-0.548,-1.273,9.568,32.378,-6.890,-12.866
-0.597,-1.041,9.476,29.695,-7.195,-7.866
-0.120,-1.137,9.188,29.939,-5.915,-4.207
0.269,-1.296,9.217,29.024,-4.329,-5.183
0.268,-1.054,9.512,28.232,-5.488,-8.171
0.016,-1.232,9.672,28.232,-13.415,-5.488
-0.002,-1.334,9.770,25.854,-20.793,-0.610
0.010,-1.249,9.928,25.793,-17.439,-0.305
-0.172,-1.137,9.926,27.561,-10.488,-1.524
-0.430,-1.067,9.855,27.988,-0.488,-2.317
-0.291,-1.208,9.512,29.634,11.707,-1.159
0.002,-1.346,9.178,26.463,14.756,4.817
-0.037,-1.158,9.351,23.476,12.439,6.951
0.064,-0.922,9.515,22.439,10.854,6.951
0.233,-0.959,9.410,21.890,6.159,12.988
0.120,-1.323,9.373,21.829,2.012,19.024
0.332,-1.538,9.371,18.659,-1.280,17.500
0.423,-1.630,9.325,11.646,-4.512,12.744
0.457,-1.444,9.487,5.549,-5.427,10.000
0.925,-1.476,9.450,2.012,-4.939,7.317
1.170,-1.627,9.435,-1.890,-8.110,4.451
1.247,-1.500,9.718,-8.232,-11.951,3.902
1.273,-1.453,9.936,-10.366,-12.988,3.476
1.074,-1.389,10.144,-10.915,-9.268,1.280
1.457,-1.568,10.260,-10.915,5.610,-0.427
1.717,-1.662,9.767,-10.244,20.915,0.915
1.201,-1.378,9.725,-8.963,25.610,-0.122
1.028,-1.411,9.960,-14.573,21.707,-0.793
0.936,-1.526,9.893,-18.841,18.902,-0.732
0.763,-1.528,9.516,-16.768,16.524,-2.256
0.627,-1.530,9.280,-23.293,6.463,-2.439
0.991,-1.813,9.227,-28.293,-2.378,-4.512
1.001,-1.876,9.264,-32.866,-1.829,-10.488
0.609,-1.481,9.776,-41.951,-7.317,-11.524
0.660,-1.471,10.224,-43.232,-15.793,-6.098
0.637,-1.304,10.335,-38.049,-10.915,-2.805
0.436,-1.086,10.197,-41.280,2.439,-0.854
0.543,-1.337,9.779,-40.427,14.695,-1.402
0.572,-1.151,9.766,-37.500,23.171,-4.329
0.410,-0.939,10.200,-38.963,27.683,-5.854
0.174,-0.998,10.628,-32.927,25.793,-1.951
0.132,-0.928,10.913,-22.195,19.451,5.122
0.023,-0.660,11.053,-17.683,15.915,10.427
-0.203,-0.738,10.769,-23.110,9.329,12.256
-0.276,-0.924,10.139,-14.878,2.500,11.402
-0.293,-0.852,9.966,-11.524,2.256,6.890
-0.299,-0.794,9.926,-12.439,5.427,2.866
-0.145,-0.868,9.892,-8.110,7.012,1.829
-0.168,-0.846,9.929,-4.329,8.598,0.671
-0.312,-1.017,9.999,-2.927,4.695,1.707
-0.256,-0.949,10.478,-1.098,1.768,3.171
-0.105,-0.830,10.865,3.354,8.659,2.439
-0.032,-0.898,10.721,11.220,14.695,4.634
0.119,-1.053,10.208,16.280,15.610,7.805
0.544,-1.383,9.656,19.024,13.841,6.524
0.840,-1.574,9.491,21.159,6.159,3.963
0.827,-1.539,9.713,18.537,-5.244,2.378
0.478,-1.501,10.106,17.561,-14.207,0.488
-0.077,-1.234,10.517,15.488,-14.939,0.610
-0.087,-1.208,10.590,16.098,-5.305,1.159
0.283,-1.308,10.223,31.280,9.329,1.524
0.586,-1.360,9.858,34.085,12.622,3.049
0.934,-1.583,9.722,28.902,6.341,3.659
0.995,-1.704,9.884,29.939,-1.220,5.183
0.934,-1.403,10.191,29.939,-5.000,4.634
1.020,-1.325,10.242,29.634,-5.854,4.512
1.171,-1.422,10.157,34.817,-9.146,6.037
0.968,-1.324,10.221,36.585,-14.024,6.829
0.795,-1.375,10.418,34.146,-15.549,5.793
1.061,-1.744,10.275,37.073,-13.415,6.159
0.912,-1.699,9.946,38.476,-10.976,5.732
0.424,-1.396,9.989,30.061,-9.024,3.415
0.706,-1.545,9.635,29.207,1.037,0.915
1.063,-1.466,9.206,30.488,13.049,-1.463
1.155,-1.337,9.465,24.634,11.402,-4.512
1.231,-1.386,9.788,21.768,-0.793,-5.732
1.100,-1.183,9.856,19.329,-11.280,-7.012
0.620,-0.901,10.218,17.988,-11.768,-7.378
0.714,-0.772,10.117,20.305,-5.183,-9.756
0.604,-0.893,9.579,24.573,-1.098,-10.305
0.379,-0.758,9.692,22.134,-3.720,-7.378
0.757,-0.927,9.965,18.537,-4.329,-9.756
1.088,-0.995,10.194,16.402,-2.317,-16.768
1.090,-1.035,10.299,10.610,-3.049,-23.415
0.821,-0.819,10.393,2.378,-5.671,-24.390
0.691,-0.762,10.126,5.915,-7.988,-19.207
0.481,-0.831,9.649,15.488,-8.110,-14.268
0.011,-0.737,9.272,12.378,-10.976,-10.366
0.254,-0.556,9.376,3.537,-17.683,-9.085
0.493,-0.551,9.701,-1.585,-20.793,-11.341
0.130,-0.477,9.971,-0.610,-20.671,-13.049
0.005,-0.460,9.789,1.098,-13.902,-13.720
0.160,-0.420,9.431,5.122,-4.268,-14.451
0.194,-0.329,9.580,5.854,-1.585,-11.951
0.329,-0.770,9.563,3.780,-2.683,-9.329
0.084,-0.977,9.455,1.220,-1.220,-11.890
-0.248,-0.694,9.422,-3.476,-2.317,-13.598
0.016,-0.709,9.325,-8.354,-4.329,-12.500
0.279,-0.716,9.124,-10.915,-4.939,-10.610
-0.009,-0.782,9.154,-12.317,-10.610,-7.927
-0.199,-0.696,9.199,-18.049,-16.524,-6.951
-0.157,-0.641,9.272,-22.561,-21.585,-6.768
0.047,-0.554,9.428,-25.427,-23.110,-6.341
-0.177,-0.413,9.759,-26.159,-13.415,-6.829
0.344,-0.491,10.081,-21.341,-1.890,-7.561
1.007,-0.849,9.761,-17.073,7.744,-6.951
0.614,-0.912,9.670,-13.720,9.146,-6.768
0.059,-0.800,9.776,-16.037,1.890,-4.573
-0.187,-0.763,9.849,-19.512,0.366,-2.439
-0.090,-0.777,10.027,-14.634,5.671,-1.280
0.177,-0.566,10.216,-13.598,13.780,-2.561
0.457,-0.748,10.174,-19.817,14.756,-2.622
0.223,-0.910,9.793,-21.585,10.793,-1.098
0.005,-0.781,9.691,-23.354,5.915,-0.366
0.314,-0.818,10.054,-25.671,2.744,-0.122
0.448,-0.969,10.152,-22.744,5.183,-0.427
0.256,-0.867,10.203,-25.610,6.707,-1.220
0.335,-0.880,10.258,-30.915,4.085,-0.061
0.408,-0.970,10.327,-30.793,4.207,2.012
0.472,-0.867,10.431,-27.988,3.902,3.841
0.463,-0.916,10.436,-27.805,-1.341,5.000
0.543,-1.013,10.161,-27.805,-5.122,6.463
0.523,-1.169,9.778,-26.646,-6.280,5.671
0.214,-1.037,9.782,-23.171,-8.354,3.841
0.015,-0.728,9.857,-22.561,-11.585,4.146
0.010,-0.800,10.034,-18.902,-12.012,5.549
0.096,-0.922,9.746,-18.841,-6.098,4.695
0.245,-1.020,9.515,-20.488,1.524,4.146
0.283,-0.997,9.499,-17.622,6.585,4.634
0.631,-1.183,9.513,-16.159,7.622,5.549
1.026,-1.128,9.695,-15.000,6.890,6.280
1.208,-1.038,9.795,-12.439,7.317,6.524
1.225,-1.009,9.795,-7.927,7.195,5.000
0.679,-0.923,10.329,-5.976,3.963,5.488
0.378,-0.847,10.730,-2.012,8.171,7.500
0.769,-0.871,10.285,6.951,17.500,10.366
1.242,-1.180,9.710,13.293,19.146,12.683
1.253,-1.338,9.896,9.817,11.402,11.951
1.048,-1.161,10.593,9.512,2.805,10.366
1.030,-1.146,10.826,10.915,-0.366,8.476
1.241,-1.276,10.410,17.622,1.524,7.561
1.273,-1.317,10.055,18.841,2.439,6.220
0.874,-1.170,10.287,10.854,0.549,5.000
0.853,-1.215,10.363,21.037,5.976,3.841
0.905,-1.229,10.114,33.415,17.988,3.354
0.814,-1.048,10.243,29.756,20.366,7.378
1.344,-1.502,10.291,28.598,18.537,9.024
1.371,-1.417,10.138,30.244,17.500,2.805
1.130,-0.928,9.910,32.134,7.805,-1.707
1.140,-1.299,9.822,28.720,-14.329,0.183
0.583,-1.292,10.209,24.329,-25.976,0.671
0.292,-1.313,10.889,20.183,-16.280,-3.354
1.024,-1.551,10.849,25.061,2.744,-7.744
1.390,-1.568,10.341,32.744,10.427,-8.659
1.132,-1.364,9.933,27.134,8.902,-10.000
1.103,-1.402,9.451,20.915,5.610,-9.695
1.112,-1.474,9.051,21.585,3.963,-7.439
0.758,-1.353,9.576,19.695,1.159,-6.159
0.516,-1.083,9.992,16.098,-6.829,-3.659
0.967,-1.290,9.774,16.463,-7.134,-1.280
0.918,-1.431,9.434,16.463,-2.500,-0.549
0.752,-1.607,9.321,16.402,-4.329,-0.549
0.609,-1.274,9.456,16.768,-4.207,-3.232
0.728,-1.343,9.416,12.012,-4.329,-4.390
1.013,-1.426,9.536,7.012,-2.378,-8.354
1.006,-1.213,9.765,4.756,-1.829,-11.951
0.836,-1.055,9.754,4.268,-1.585,-13.354
0.868,-1.024,9.506,4.146,1.341,-13.110
0.783,-0.949,9.561,4.085,0.732,-11.402
0.687,-0.977,9.682,2.683,-3.415,-9.756
0.610,-0.836,9.722,-0.061,-4.512,-10.427
0.333,-0.450,10.019,-1.341,-2.683,-12.744
0.299,-0.224,10.262,0.854,-4.146,-13.110
0.367,-0.362,10.394,1.402,-8.720,-11.646
0.236,-0.408,10.284,1.463,-11.402,-10.915
-0.001,-0.336,10.254,2.927,-9.939,-10.488
-0.331,-0.211,10.413,1.890,-5.061,-8.902
-0.958,0.111,10.437,4.024,0.549,-4.207
-0.948,0.281,10.397,5.122,4.329,1.646
-0.211,-0.058,10.160,5.305,7.195,3.659
0.071,-0.029,9.945,5.732,5.305,2.988
0.075,-0.124,9.876,5.305,-1.098,2.500
-0.151,-0.184,9.634,6.159,-8.537,2.744
-0.519,-0.301,9.640,5.488,-13.659,3.415
-0.863,-0.096,9.961,2.683,-10.183,1.951
-0.777,-0.081,9.972,5.244,2.500,2.744
-0.737,-0.137,9.737,8.293,12.622,5.244
-0.726,-0.186,9.383,7.073,18.537,9.634
-0.372,-0.640,9.247,7.439,23.415,13.110
0.221,-0.792,9.245,7.378,18.049,11.402
0.501,-0.590,9.454,0.000,4.634,8.902
0.341,-0.597,9.373,-3.598,-5.610,10.000
0.180,-0.707,9.322,-3.537,-10.549,10.793
0.395,-0.646,9.793,-4.634,-9.451,9.634
0.421,-0.478,10.312,-4.329,-3.049,9.390
0.385,-0.557,10.310,-3.537,5.061,10.305
0.800,-0.903,9.972,0.122,9.207,11.707
0.879,-0.980,9.869,0.549,9.451,11.098
0.897,-0.873,9.898,-3.293,8.049,9.024
1.098,-1.017,9.723,-3.902,6.402,7.866
1.041,-0.871,9.885,-6.951,6.402,6.341
0.996,-0.766,9.968,-7.927,4.268,6.098
0.737,-0.771,9.758,-6.890,-0.488,6.829
0.460,-0.712,9.682,-9.878,-3.780,7.256
0.458,-0.741,9.824,-12.134,-2.561,8.598
0.521,-0.763,9.975,-12.622,3.354,9.085
0.558,-0.856,9.716,-9.878,7.256,9.207
0.432,-0.867,9.512,-8.171,5.000,10.305
0.302,-0.770,9.474,-11.829,4.207,10.000
0.327,-0.784,9.451,-12.012,6.463,9.878
0.570,-0.882,9.265,-8.415,5.305,9.085
0.766,-1.001,9.556,-14.329,0.244,6.890
0.614,-0.932,9.844,-14.268,0.854,3.780
0.280,-0.844,9.807,-13.720,2.317,4.268
0.146,-0.829,9.756,-11.159,4.207,7.378
0.360,-1.035,9.678,-10.305,9.512,9.024
0.436,-1.089,9.817,-12.256,13.415,9.329
0.436,-0.956,10.174,-12.988,12.073,9.634
0.795,-1.113,10.139,-14.390,6.220,10.061
0.806,-1.234,10.026,-15.000,2.134,9.573
0.767,-1.313,9.972,-16.768,0.671,7.866
0.913,-1.355,9.959,-15.488,2.012,5.305
0.755,-1.398,10.038,-20.305,3.049,4.451
0.454,-1.393,9.935,-20.061,0.976,5.610
0.468,-1.419,9.660,-16.220,-1.037,6.159
0.568,-1.482,9.785,-22.744,-2.439,4.939
0.470,-1.551,10.034,-30.000,-3.354,3.171
0.923,-1.482,9.984,-29.207,0.244,0.793
1.354,-1.495,9.943,-30.793,4.024,-2.927
1.332,-1.400,10.032,-32.439,2.683,-5.915
1.260,-1.445,9.850,-30.610,-1.037,-5.732
1.117,-1.426,9.840,-29.817,-8.171,-3.598
0.884,-1.505,10.030,-31.890,-13.476,-1.951
0.861,-1.425,10.263,-30.976,-12.561,-0.305
1.411,-1.581,10.186,-28.659,-12.073,1.220
1.707,-1.682,10.142,-29.695,-12.439,2.744
1.748,-1.644,10.019,-28.902,-15.793,6.280
1.245,-1.486,9.785,-26.159,-22.439,10.000
0.886,-1.440,9.695,-23.780,-30.854,9.451
0.877,-1.437,9.978,-26.524,-33.902,5.244
0.649,-1.352,10.380,-23.659,-25.671,0.610
0.735,-1.441,10.269,-16.341,-11.463,-3.110
0.816,-1.509,9.882,-8.415,2.561,-6.646
0.815,-1.507,9.703,-5.610,10.915,-9.146
0.946,-1.615,9.695,-5.610,13.902,-10.488
0.981,-1.438,9.977,-4.329,13.841,-13.110
1.111,-1.476,10.181,-3.232,6.341,-12.500
0.876,-1.425,10.414,-1.707,-0.183,-11.707
0.684,-1.397,10.435,2.256,0.122,-10.305
0.663,-1.472,10.120,6.159,1.829,-10.244
0.196,-1.320,10.247,7.317,0.549,-10.488
-0.004,-1.155,10.530,6.707,2.500,-10.427
0.457,-1.262,10.580,9.634,5.854,-9.512
0.626,-1.362,10.555,13.598,7.256,-8.963
0.594,-1.475,10.217,16.220,2.988,-8.902
0.599,-1.517,10.102,15.366,-3.110,-9.817
0.394,-1.567,10.067,17.927,-5.915,-9.939
0.334,-1.540,10.028,29.024,-6.463,-8.841
-0.139,-1.452,9.903,27.073,-6.829,-7.317
-0.185,-1.399,10.062,13.902,-10.549,-5.976
0.174,-1.326,10.305,18.780,-5.000,-4.756
0.630,-1.273,10.278,23.171,5.183,-6.159
0.791,-1.387,10.032,27.256,3.780,-5.610
0.397,-1.350,9.751,34.024,-2.988,-3.415
-0.172,-1.275,9.493,30.244,-5.000,-0.915
-0.365,-1.158,9.397,30.427,-2.927,1.707
0.025,-1.277,9.413,27.805,-4.634,3.049
0.318,-1.317,9.612,25.122,-6.280,2.561
0.245,-1.259,9.761,22.683,-8.049,0.488
-0.249,-0.989,9.958,22.500,-9.024,1.463
-0.138,-0.901,9.984,25.366,-5.488,3.476
0.051,-1.122,9.788,27.561,0.976,2.317
-0.411,-1.059,9.910,25.915,6.707,-1.098
-0.430,-0.795,9.938,26.463,5.549,0.488
0.013,-1.146,9.670,26.707,5.061,2.927
-0.068,-0.884,9.644,22.073,4.512,2.256
0.210,-0.628,9.456,22.561,-3.902,3.841
0.286,-0.969,9.306,24.146,-16.768,7.500
-0.011,-1.261,9.343,17.195,-25.305,14.268
-0.450,-1.030,9.643,12.073,-20.915,18.354
-0.141,-1.243,9.689,15.122,-8.963,18.780
0.561,-1.444,9.384,14.329,-0.671,17.622
0.807,-1.383,9.268,8.232,-1.159,14.756
0.784,-1.365,9.422,4.329,-6.463,13.720
1.132,-1.383,9.552,2.073,-4.207,11.402
1.252,-1.427,9.705,-0.244,0.732,8.598
1.183,-1.444,9.905,-3.902,4.146,7.561
1.074,-1.469,9.947,-5.427,10.427,8.171
1.594,-1.459,9.462,-4.268,19.146,12.744
1.863,-1.615,9.511,-7.561,16.402,13.171
1.575,-1.349,9.794,-10.427,10.061,13.415
1.590,-1.379,9.745,-13.354,6.707,12.683
1.411,-1.177,9.760,-13.902,7.744,10.610
1.147,-1.055,9.831,-13.171,8.232,9.146
1.065,-1.186,9.716,-12.988,5.976,9.878
0.973,-1.381,9.443,-14.085,7.378,9.085
0.746,-1.362,9.342,-16.037,10.000,6.402
0.834,-1.305,9.406,-19.512,8.354,5.549
1.112,-1.432,9.546,-22.073,11.341,6.159
1.079,-1.571,9.570,-23.049,20.244,6.402
0.721,-1.363,9.667,-23.415,23.476,5.549
0.740,-1.205,9.901,-21.402,23.232,4.756
0.524,-1.155,9.792,-21.524,22.195,4.207
0.725,-1.269,9.743,-26.707,11.341,5.122
1.322,-1.556,9.953,-25.305,2.988,3.659
1.152,-1.416,10.231,-25.000,0.671,-0.061
1.024,-1.480,10.332,-28.476,-5.549,0.061
1.189,-1.706,10.311,-28.354,-9.756,-1.280
1.031,-1.663,10.405,-26.768,-8.293,-3.902
0.948,-1.248,10.362,-20.305,-4.939,-2.988
1.062,-1.504,10.371,-27.378,-5.427,-0.732
0.970,-1.617,10.418,-25.427,-3.232,-0.671
1.007,-1.487,10.406,-17.927,1.707,-0.488
1.463,-1.669,10.068,-18.598,-0.244,0.549
1.616,-1.790,9.741,-18.841,-7.744,1.768
1.122,-1.487,9.816,-17.927,-12.988,2.073
0.753,-1.334,9.742,-15.061,-19.512,0.854
0.691,-1.413,10.017,-11.037,-25.122,0.000
0.642,-1.244,10.186,-11.341,-20.305,-1.402
1.018,-1.501,10.043,-13.902,-17.866,-2.805
1.137,-1.515,9.849,-9.024,-15.549,-2.866
1.244,-1.617,9.747,-6.707,-15.000,-3.963
1.186,-1.588,10.005,-7.500,-20.061,-6.402
0.719,-1.390,10.585,-8.171,-19.451,-7.866
0.327,-1.379,10.861,-3.841,-6.646,-9.878
0.487,-1.501,10.393,5.427,6.646,-11.220
0.746,-1.642,9.789,7.622,11.098,-10.549
0.674,-1.607,9.525,6.951,11.585,-10.915
0.845,-1.654,9.408,6.159,5.305,-11.280
0.467,-1.511,9.879,1.280,-5.000,-9.634
-0.109,-1.258,10.417,0.610,-11.402,-5.244
0.063,-1.364,10.186,5.244,-8.171,-2.927
0.738,-1.708,9.494,7.561,-0.244,-5.183
0.695,-1.592,9.436,6.890,3.293,-7.927
0.291,-1.390,9.544,6.768,-0.671,-6.402
0.345,-1.398,9.468,6.524,-7.073,-3.171
0.502,-1.627,9.472,5.488,-8.963,-1.524
0.592,-1.437,9.770,6.159,-6.951,-2.073
0.953,-1.359,9.918,6.707,-2.378,-3.537
0.852,-1.340,10.130,9.878,1.098,-5.244
0.778,-1.354,10.277,11.341,1.951,-4.329
0.915,-1.492,9.979,14.024,3.537,-3.720
1.138,-1.623,9.815,14.573,0.183,-3.598
1.417,-1.727,10.154,10.976,-6.341,-5.244
1.082,-1.561,10.845,10.488,-7.683,-8.110
0.336,-1.533,10.924,13.171,-1.951,-7.683
0.419,-1.402,10.262,16.646,7.622,-6.280
1.249,-1.741,9.465,19.878,11.524,-6.768
1.204,-1.533,9.684,15.061,4.329,-7.866
0.641,-1.249,10.308,11.829,-5.244,-6.402
0.460,-1.409,10.135,15.854,-7.439,-3.780
0.473,-1.381,10.078,17.927,-4.146,-3.780
0.662,-1.316,10.271,19.390,-3.110,-3.780
0.874,-1.532,9.884,22.195,-4.695,-2.439
0.680,-1.572,9.448,19.207,-4.634,-3.841
0.358,-1.371,9.631,17.622,-2.988,-4.756
0.107,-1.144,9.865,18.232,4.695,-4.817
0.362,-1.329,9.296,20.244,12.439,-3.415
0.812,-1.611,8.766,19.085,9.573,0.549
0.355,-1.268,9.163,13.780,2.744,3.720
0.060,-1.085,9.719,10.427,-0.488,5.671
0.391,-1.133,9.821,10.000,1.646,6.524
0.681,-1.071,10.135,9.695,7.195,6.768
0.895,-1.187,10.095,12.500,9.756,6.951
0.871,-1.302,9.842,15.976,8.476,7.805
0.723,-1.323,9.741,13.049,2.561,8.110
0.710,-1.197,10.039,7.378,-2.927,7.439
0.811,-1.204,10.012,8.720,-0.061,6.159
1.119,-1.374,9.414,10.305,3.537,4.512
1.352,-1.407,9.404,4.512,2.927,0.915
1.575,-1.164,9.756,1.890,0.976,-1.402
1.533,-1.287,9.921,5.427,2.622,-2.012
1.538,-1.216,10.162,5.061,2.012,-1.280
1.569,-1.289,9.972,7.195,4.817,0.732
1.609,-1.432,9.585,9.329,12.073,-1.159
1.556,-1.385,9.689,6.220,17.866,-5.244
1.757,-1.369,9.814,5.488,21.646,-5.732
2.082,-1.380,9.833,5.305,21.402,-6.037
1.869,-1.290,9.853,4.451,18.415,-6.402
1.402,-1.104,9.740,5.976,17.317,-7.927
1.521,-1.011,9.741,5.793,13.902,-8.963
1.785,-1.107,9.900,4.512,7.195,-8.963
1.832,-1.182,9.869,6.037,0.183,-9.817
1.500,-1.197,9.874,5.793,-5.976,-10.915
1.094,-1.154,9.864,4.390,-6.280,-11.585
0.916,-1.007,9.892,4.512,0.915,-13.415
1.160,-0.943,9.847,6.646,4.756,-13.354
1.135,-0.893,9.880,6.707,0.549,-10.122
0.791,-0.897,10.275,5.000,-2.500,-10.915
0.764,-0.988,10.292,6.524,-0.305,-12.866
0.494,-1.165,10.036,7.744,3.841,-12.805
0.110,-1.034,9.872,7.012,5.427,-10.793
0.263,-0.943,9.755,1.402,6.585,-8.841
0.760,-1.123,9.303,1.402,6.524,-8.049
0.798,-1.037,9.393,-2.195,1.646,-8.171
0.753,-1.026,9.760,-7.988,-4.756,-8.659
0.746,-1.024,9.881,-9.634,-8.415,-9.817
0.496,-1.053,9.784,-9.146,-7.317,-10.854
0.271,-0.987,9.409,-5.671,-7.805,-9.146
-0.013,-0.842,9.382,-7.195,-11.220,-6.890
0.230,-0.829,9.540,-12.012,-10.549,-5.976
0.655,-1.079,9.597,-11.890,-4.634,-6.829
0.868,-1.143,9.620,-11.220,1.159,-9.573
0.548,-1.020,9.841,-11.159,1.890,-10.732
-0.036,-0.849,10.019,-13.659,1.585,-11.524
-0.057,-0.803,9.790,-14.085,5.854,-10.915
0.232,-0.988,9.361,-12.195,11.280,-10.671
0.110,-0.804,9.327,-12.439,9.817,-9.634
0.062,-0.770,9.504,-11.341,1.402,-5.427
0.071,-0.901,9.484,-6.037,-4.085,-0.610
-0.082,-0.950,9.421,-7.622,-4.817,3.232
0.561,-1.259,9.404,-14.024,-9.268,4.817
0.727,-1.297,9.553,-16.402,-9.390,3.293
0.532,-1.182,9.682,-15.305,-11.829,3.415
0.526,-1.168,9.666,-15.305,-17.683,4.085
0.238,-1.162,10.080,-21.646,-22.866,4.329
0.081,-1.037,10.470,-17.378,-16.585,4.512
0.201,-1.019,10.284,-12.439,-4.939,4.451
0.502,-1.390,9.875,-18.720,-3.049,5.671
0.798,-1.617,9.731,-19.451,-4.634,7.683
0.927,-1.564,10.062,-21.402,-2.988,6.524
1.311,-1.659,10.177,-21.524,0.427,0.793
1.081,-1.718,9.896,-24.451,-4.756,-0.244
0.674,-1.456,10.238,-25.854,-7.927,-0.305
0.508,-1.217,10.508,-23.720,-1.402,1.037
0.614,-1.519,9.793,-18.963,2.500,6.098
0.807,-1.758,9.125,-18.537,0.854,9.207
0.753,-1.793,9.154,-22.439,0.915,8.110
0.302,-1.702,9.632,-23.293,0.976,8.049
0.388,-1.525,10.258,-19.817,4.634,8.598
0.672,-1.566,10.312,-22.317,9.573,9.634
1.018,-1.657,10.047,-22.500,11.524,10.427
1.050,-1.536,9.883,-19.512,10.976,9.573
0.961,-1.399,9.896,-20.854,5.671,8.537
0.696,-1.175,10.370,-21.280,1.646,8.841
0.749,-1.167,10.697,-17.195,7.683,8.171
0.882,-1.353,10.262,-10.366,13.415,8.963
0.689,-1.092,10.168,-9.024,13.720,10.244
0.678,-1.177,10.169,-7.683,14.634,11.098
0.642,-1.386,10.044,-2.744,16.768,11.402
0.520,-1.207,10.108,-0.488,15.732,13.780
0.901,-1.571,9.635,1.280,15.183,14.512
0.882,-1.718,9.443,4.207,14.146,13.049
0.557,-1.539,9.636,4.634,8.598,12.073
0.540,-1.620,9.752,3.780,2.317,11.585
0.674,-1.699,9.887,5.610,2.378,11.646
0.640,-1.615,9.849,7.988,7.561,10.427
0.371,-1.411,9.725,8.537,8.659,11.585
0.339,-1.547,9.743,12.805,8.659,15.671
0.450,-1.618,9.655,19.390,17.866,16.951
1.021,-1.840,9.579,19.268,23.293,14.207
1.377,-1.952,9.759,21.159,25.000,10.976
1.083,-1.796,9.996,22.134,24.390,10.366
1.256,-1.961,9.902,23.293,18.415,10.061
1.314,-2.041,9.974,23.659,11.159,7.073
1.153,-1.818,10.606,16.402,2.622,5.427
1.447,-1.896,10.959,17.500,-1.402,5.671
1.156,-1.760,10.980,25.183,-0.549,4.573
0.706,-1.505,10.949,25.549,3.720,1.585
0.596,-1.561,10.459,26.341,11.524,1.951
0.927,-1.739,10.022,30.183,17.012,1.341
1.393,-1.542,10.036,28.720,16.646,-1.341
1.592,-1.684,9.793,26.341,9.390,-2.195
1.177,-1.726,9.947,25.488,-2.500,-1.159
0.948,-1.633,10.398,23.049,-12.439,-1.890
0.982,-1.571,10.495,19.817,-15.183,-3.537
1.127,-1.720,10.214,20.122,-16.829,-3.720
1.330,-1.636,10.165,22.073,-21.280,-4.512
1.242,-1.596,10.081,22.927,-24.207,-6.098
0.712,-1.498,9.833,23.232,-19.512,-10.122
0.093,-1.366,9.621,20.427,-7.012,-12.744
0.573,-1.565,8.954,23.963,4.024,-11.402
0.952,-1.676,8.773,30.427,7.683,-10.122
0.587,-1.463,9.085,24.268,1.220,-10.061
0.482,-1.489,9.148,15.915,-6.463,-8.902
0.709,-1.678,8.837,18.963,-7.622,-8.720
0.650,-1.679,8.897,13.902,-7.256,-10.427
0.545,-1.528,9.268,6.402,-8.232,-11.829
0.616,-1.389,9.566,4.268,-8.720,-12.378
0.553,-1.153,9.789,3.659,-4.329,-14.146
0.508,-1.233,9.462,7.256,2.256,-14.024
0.612,-1.299,9.327,7.561,5.000,-15.732
0.502,-0.955,9.628,2.866,0.610,-16.829
0.382,-0.947,9.923,1.707,-8.841,-13.963
0.259,-1.110,10.013,-0.061,-10.000,-13.171
0.026,-1.025,10.225,-0.183,-1.341,-14.451
0.230,-0.968,10.161,0.915,5.366,-14.756
0.685,-1.102,9.752,-0.183,8.293,-13.841
0.556,-0.967,9.792,-1.829,8.659,-14.390
0.270,-0.924,9.854,-3.171,5.000,-13.963
0.034,-1.048,9.589,-4.146,0.427,-12.500
-0.184,-0.967,9.574,-6.341,-6.463,-11.463
-0.298,-0.886,9.641,-9.146,-12.439,-8.537
-0.654,-0.956,9.569,-9.146,-13.537,-5.305
-0.560,-1.061,9.429,-7.622,-13.598,-3.659
-0.385,-0.985,9.428,-7.012,-9.817,-1.768
-0.209,-0.863,9.303,-11.098,-8.537,-0.610
0.263,-1.165,9.080,-17.744,-12.134,1.098
0.397,-1.211,9.205,-19.451,-10.793,2.378
-0.101,-0.868,9.568,-22.439,-11.463,3.780
-0.761,-0.702,10.184,-21.646,-17.134,5.976
-0.627,-0.708,10.627,-16.098,-12.012,6.159
-0.215,-1.053,10.423,-16.159,0.610,6.159
0.191,-1.209,10.130,-17.317,5.122,6.280
0.421,-1.270,9.793,-18.659,6.585,6.707
0.612,-1.320,9.726,-19.329,7.500,7.439
0.651,-1.340,9.928,-19.390,11.037,6.768
0.465,-1.363,10.137,-23.780,12.256,6.463
0.396,-1.390,10.181,-27.683,7.256,7.500
0.667,-1.426,10.064,-26.280,3.841,7.012
0.729,-1.407,10.133,-24.268,2.927,4.634
0.445,-1.349,10.275,-26.585,-5.427,8.841
0.151,-1.280,10.518,-29.634,-12.378,14.756
0.289,-1.404,10.395,-28.110,-6.890,15.671
0.420,-1.466,10.050,-23.720,5.549,12.256
-0.016,-1.193,10.181,-20.183,16.951,8.720
-0.155,-1.148,10.224,-22.622,24.817,7.866
0.305,-1.231,9.853,-19.085,28.780,8.598
0.776,-1.063,9.743,-16.402,25.061,8.354
0.859,-1.013,10.158,-16.646,19.756,7.866
1.083,-1.174,10.426,-13.049,17.927,7.622
1.162,-1.065,10.636,-9.146,19.512,6.890
1.128,-1.318,10.461,-4.573,16.341,7.378
0.949,-1.231,10.287,-1.829,10.915,9.939
1.139,-1.309,10.068,1.341,6.707,12.622
1.365,-1.587,9.821,4.634,4.573,12.134
1.253,-1.579,10.004,5.488,3.598,9.451
1.010,-1.494,10.294,7.439,5.244,6.524
0.910,-1.453,10.298,11.524,9.268,4.756
1.097,-1.290,10.507,15.000,11.951,3.415
1.344,-1.200,10.906,16.159,12.744,2.378
1.352,-1.291,10.813,25.183,12.744,1.402
0.872,-1.260,10.482,32.134,12.378,3.232
0.529,-1.519,9.921,32.744,13.110,5.671
0.562,-1.491,9.705,30.976,9.756,6.829
0.830,-1.731,9.634,29.878,1.159,8.049
0.371,-1.655,9.817,22.073,-5.610,7.378
-0.065,-1.633,10.029,21.037,-7.683,5.976
-0.157,-1.467,9.908,24.207,-5.183,3.110
-0.154,-1.529,9.667,19.512,-4.634,2.805
-0.377,-1.490,9.630,18.049,-5.122,3.354
-0.754,-1.484,9.799,17.073,2.256,2.073
-0.961,-1.489,9.446,20.732,12.378,2.378
-0.828,-1.468,8.774,19.695,15.976,4.512
-0.348,-1.510,8.475,13.720,14.573,4.878
-0.379,-1.445,8.589,11.707,13.598,4.207
-0.444,-1.352,9.054,6.341,11.646,5.183
-0.177,-1.356,9.442,0.976,11.341,6.463
-0.132,-1.331,9.625,5.427,13.110,7.500
-0.015,-1.389,9.571,7.927,13.720,8.049
0.158,-1.525,9.395,7.073,13.232,7.744
0.257,-1.541,9.232,6.524,9.329,6.768
0.213,-1.508,9.442,2.195,3.841,5.915
0.096,-1.473,9.670,-2.134,1.463,5.244
0.076,-1.561,9.819,-0.488,3.659,5.366
0.345,-1.462,10.014,-1.159,8.598,4.695
0.457,-1.494,9.975,-1.280,5.671,6.280
0.421,-1.487,10.182,-4.390,1.098,7.012
0.326,-1.645,10.081,-3.354,4.634,6.098
-0.077,-1.535,9.901,-2.683,11.037,4.756
0.005,-1.460,9.715,-2.744,14.451,4.146
0.232,-1.417,9.550,-3.841,13.963,2.988
0.201,-1.273,9.609,-6.098,7.256,3.415
-0.001,-1.249,9.640,-6.646,-1.585,4.878
-0.287,-1.227,9.867,-8.841,-6.890,4.085
-0.361,-1.238,9.937,-9.207,-5.793,3.171
-0.064,-1.398,9.747,-6.341,-1.890,5.488
-0.044,-1.371,9.629,-6.402,-0.488,6.707
-0.017,-1.430,9.531,-6.829,0.244,5.732
-0.204,-1.447,9.631,-10.000,2.012,4.024
-0.414,-1.384,9.830,-13.049,3.720,3.049
-0.400,-1.310,9.929,-11.890,6.341,3.293
-0.086,-1.451,9.884,-11.585,10.122,3.171
0.255,-1.517,9.695,-7.439,12.439,1.037
0.107,-1.462,9.723,-12.073,6.159,-0.061
-0.169,-1.508,10.186,-18.598,-4.817,0.854
-0.148,-1.438,10.260,-14.939,-7.317,1.220
0.127,-1.558,10.087,-11.585,-3.232,0.671
0.536,-1.750,10.014,-10.915,-0.305,-0.122
0.421,-1.672,10.259,-15.854,0.366,-0.488
0.164,-1.674,10.268,-17.439,1.220,0.732
0.259,-1.652,9.996,-14.634,4.695,0.427
0.317,-1.687,9.713,-14.512,4.512,-0.671
0.204,-1.771,9.706,-12.988,-2.012,-0.305
0.073,-1.733,9.701,-16.951,-6.037,-0.732
0.093,-1.689,9.765,-22.439,-9.634,-1.768
0.147,-1.761,9.777,-20.976,-14.573,-0.488
0.335,-1.769,9.811,-23.232,-17.378,-0.610
0.525,-1.644,9.734,-23.659,-16.829,-2.012
0.487,-1.660,9.674,-21.037,-15.061,-0.244
0.509,-1.965,9.539,-18.110,-12.256,1.646
0.519,-1.880,9.686,-19.756,-9.268,0.854
0.575,-1.827,9.906,-19.268,-7.500,0.244
0.432,-1.730,10.221,-18.293,-4.268,-1.220
0.327,-1.706,10.556,-15.610,3.476,-3.963
0.534,-1.750,10.521,-9.268,9.329,-5.732
0.517,-1.890,10.494,-1.768,7.500,-5.915
0.212,-1.753,10.281,4.146,7.256,-5.122
0.395,-1.949,9.847,-5.854,5.000,-5.732
0.642,-1.962,9.858,-5.854,0.305,-6.951
0.553,-1.865,10.048,-5.671,-4.207,-7.073
0.332,-1.783,10.226,-5.366,-7.622,-5.854
0.212,-1.781,10.274,-4.817,-9.817,-4.512
0.164,-1.887,10.114,-1.890,-9.085,-4.573
0.227,-1.790,10.097,-1.524,-6.280,-5.732
0.529,-1.838,10.075,-0.732,-6.341,-5.488
0.704,-1.933,9.905,1.951,-8.902,-5.671
0.556,-1.985,9.722,2.256,-11.463,-5.671
0.445,-1.899,9.540,2.805,-11.768,-6.280
0.316,-1.809,9.681,4.390,-13.476,-7.866
-0.017,-1.525,10.205,6.402,-9.085,-10.549
-0.054,-1.620,9.997,5.427,0.793,-12.134
0.178,-1.584,9.678,8.171,2.012,-10.610
0.266,-1.598,9.644,5.671,-1.890,-9.085
0.255,-1.547,9.983,5.976,-3.598,-8.659
0.390,-1.541,10.108,7.500,-3.293,-8.476
0.471,-1.453,10.118,9.451,-0.732,-9.085
0.565,-1.476,9.966,12.439,0.427,-9.756
0.755,-1.497,9.598,14.756,-4.451,-10.366
0.920,-1.699,9.369,14.573,-13.720,-11.159
0.618,-1.636,9.930,10.854,-25.122,-11.159
-0.171,-1.365,10.622,12.500,-29.878,-9.695
-0.590,-1.416,10.807,17.195,-22.866,-9.268
-0.448,-1.397,10.633,20.122,-6.951,-11.585
-0.367,-1.419,9.864,29.146,7.134,-9.390
-0.191,-1.508,9.006,32.622,12.927,-6.341
0.124,-1.426,9.084,28.476,13.171,-6.220
0.196,-1.305,9.476,23.476,6.463,-5.488
0.172,-1.317,9.786,21.829,-4.634,-2.927
0.034,-1.383,10.092,23.841,-9.939,-1.951
0.151,-1.394,9.981,25.488,-9.207,-3.537
0.262,-1.360,9.707,31.098,-8.780,-2.683
-0.053,-1.132,9.763,31.707,-11.585,-0.427
-0.600,-0.890,10.212,27.805,-11.220,1.098
-0.735,-0.912,10.452,28.415,-3.963,0.793
-0.727,-1.039,10.300,30.793,8.110,-0.549
-0.713,-0.994,10.087,34.573,16.159,0.427
-0.518,-0.998,9.679,33.963,17.622,3.171
-0.353,-0.670,9.577,28.598,15.122,6.037
-0.296,-0.615,9.734,28.841,16.585,11.220
0.072,-1.029,9.808,35.976,15.305,15.427
0.148,-1.090,10.047,34.207,1.707,17.195
-0.442,-0.863,10.231,25.488,-8.415,17.317
-0.892,-0.756,10.328,22.439,-3.354,15.183
-0.599,-0.914,10.174,27.927,9.146,10.854
-0.314,-1.066,9.655,30.793,16.463,9.512
-0.455,-1.059,9.537,22.439,16.646,10.427
-0.481,-0.983,9.750,13.780,14.146,9.634
-0.204,-0.931,9.877,12.988,14.024,8.720
-0.265,-0.866,9.621,14.085,14.268,11.220
0.293,-1.234,9.276,8.780,7.500,13.110
0.898,-1.317,9.407,2.500,-1.220,11.585
0.646,-1.079,9.992,-0.427,-7.134,11.463
0.635,-0.981,10.276,-0.427,-9.390,12.561
0.726,-1.293,9.908,1.280,-11.585,14.939
0.443,-1.396,9.546,1.037,-9.634,13.963
0.190,-1.240,9.514,-4.695,-2.195,10.610
0.467,-1.119,9.748,-12.256,6.402,7.805
0.524,-1.154,9.692,-10.671,9.207,8.476
0.749,-1.361,9.367,-10.061,8.598,7.805
1.073,-1.635,9.249,-18.049,8.963,2.561
1.141,-1.533,9.459,-24.268,6.890,-5.427
1.180,-1.442,9.634,-30.305,-2.256,-11.768
1.143,-1.381,9.764,-36.768,-13.720,-15.549
0.883,-1.222,9.546,-37.622,-18.963,-16.463
0.644,-1.261,9.324,-34.207,-16.402,-14.329
0.680,-1.371,9.054,-34.024,-11.707,-10.976
0.940,-1.325,8.579,-33.841,-8.171,-7.561
0.740,-1.235,8.766,-32.439,-5.793,0.122
0.669,-1.633,8.974,-31.951,-4.085,6.524
0.729,-1.711,9.210,-31.159,-5.915,9.573
0.625,-1.650,9.530,-28.232,-10.000,10.305
0.429,-1.726,9.809,-32.500,-16.220,8.232
0.246,-1.708,10.652,-38.293,-22.012,5.610
0.220,-1.601,10.993,-32.073,-10.793,0.610
0.414,-1.603,10.336,-27.195,9.878,-5.122
0.682,-1.839,9.795,-30.305,19.695,-7.561
1.129,-1.870,9.497,-30.854,21.890,-11.341
1.230,-1.642,9.812,-38.354,13.902,-16.220
1.146,-1.542,10.679,-42.256,-1.646,-15.671
0.706,-1.443,11.159,-38.171,-9.085,-10.122
0.427,-1.692,11.221,-36.768,-10.122,-5.305
0.761,-1.861,10.920,-30.488,-7.500,-4.817
0.991,-1.892,10.427,-25.671,-1.463,-8.598
0.603,-1.563,10.158,-25.000,2.561,-10.366
0.164,-1.351,10.248,-34.512,2.073,-8.293
-0.016,-1.401,10.099,-30.915,6.829,-4.939
-0.089,-1.445,9.941,-24.939,7.622,-2.012
-0.174,-1.281,9.925,-24.573,2.622,1.220
-0.293,-1.422,9.852,-22.134,-0.427,4.329
-0.112,-1.664,9.492,-17.134,-0.122,5.915
-0.019,-1.681,9.333,-16.402,3.171,4.085
-0.300,-1.523,9.398,-14.573,5.366,3.354
-0.369,-1.569,9.327,-14.390,3.354,5.793
-0.396,-1.706,9.351,-13.659,1.524,8.171
-0.638,-1.619,9.919,-13.598,3.354,9.817
-0.776,-1.566,10.299,-11.280,8.598,11.707
-0.260,-1.788,10.133,-6.585,14.756,14.451
0.137,-1.973,9.869,-4.817,21.341,14.451
0.235,-1.954,9.689,-1.524,25.122,13.049
0.250,-1.993,9.782,0.000,24.817,12.256
0.290,-1.908,10.232,0.244,18.354,12.378
0.344,-1.865,10.666,0.854,13.476,12.317
0.739,-1.960,10.518,6.646,16.524,12.195
0.736,-1.975,10.417,13.841,21.098,12.622
0.784,-1.927,10.798,18.537,19.329,13.780
1.195,-2.197,10.507,22.195,17.195,12.195
1.322,-2.352,9.843,28.659,15.854,6.707
1.023,-2.245,9.683,29.695,9.329,2.500
0.602,-2.039,10.089,27.317,4.024,0.976
0.834,-1.976,10.337,27.683,-0.061,-0.427
1.416,-2.252,10.116,35.122,-5.061,-2.195
1.416,-2.312,9.902,38.659,-9.146,-2.073
0.997,-1.942,9.963,34.390,-12.500,0.183
0.930,-1.808,9.835,37.622,-12.256,4.390
0.831,-2.201,9.862,48.232,-7.073,8.780
0.576,-2.116,9.849,46.220,-8.171,9.634
0.731,-1.926,9.888,41.524,-8.049,7.744
0.899,-1.917,9.827,41.951,-3.232,4.512
0.728,-1.983,9.456,41.341,-0.061,1.707
0.229,-1.995,9.269,38.780,0.061,0.732
0.317,-1.856,9.247,29.207,0.061,-2.866
0.563,-1.807,9.355,23.476,0.732,-8.415
0.575,-1.782,9.694,23.293,-1.037,-10.000
0.910,-1.915,9.698,22.683,-5.122,-10.061
0.716,-1.979,9.809,16.585,-7.866,-13.720
-0.123,-1.540,10.647,15.976,-6.646,-18.171
0.050,-1.806,10.372,18.720,-0.671,-20.305
0.395,-1.832,9.683,21.646,5.732,-19.146
0.258,-1.558,9.522,18.659,4.817,-17.317
0.055,-1.565,9.383,14.329,0.305,-14.390
0.275,-1.754,9.239,10.915,-2.683,-12.378
0.625,-1.751,9.416,7.805,-4.695,-12.866
0.740,-1.601,9.760,3.841,-6.402,-14.146
0.750,-1.444,10.086,3.598,-8.780,-14.451
0.684,-1.469,9.971,5.122,-11.402,-13.598
0.434,-1.411,9.957,2.500,-8.537,-16.341
0.245,-1.186,9.873,5.610,-2.927,-18.720
0.588,-1.234,9.667,7.622,-4.390,-17.988
0.733,-1.343,9.603,3.720,-4.756,-17.500
0.508,-1.407,9.489,5.549,-2.012,-17.988
0.265,-1.143,9.389,4.878,-1.890,-17.683
-0.083,-1.198,9.242,2.012,-5.671,-14.817
-0.664,-1.128,9.173,0.732,-9.085,-12.012
-0.828,-1.083,9.303,-1.646,-9.817,-9.451
-0.620,-1.037,9.509,-4.085,-8.598,-7.988
-0.140,-1.253,9.419,-4.817,-9.390,-6.402
0.141,-1.408,9.302,-4.512,-7.622,-7.927
-0.223,-1.149,9.625,-5.061,-3.171,-10.671
-0.427,-0.851,9.693,-6.463,-1.220,-10.793
-0.336,-1.007,9.265,-6.341,-3.049,-9.085
-0.676,-1.065,9.253,-8.354,-6.037,-6.768
-1.119,-0.988,9.444,-10.671,-8.902,-3.598
-1.005,-1.072,9.757,-11.220,-10.427,0.427
-0.445,-1.274,9.861,-8.415,-2.439,1.220
-0.255,-1.381,9.708,-9.756,6.707,-0.183
-0.104,-1.503,9.749,-19.085,3.598,-0.305
-0.239,-1.428,10.020,-22.195,1.220,-0.122
-0.337,-1.325,10.100,-21.402,-0.793,2.439
0.012,-1.395,10.174,-17.073,-4.085,4.451
-0.242,-1.356,10.141,-17.256,-7.500,6.707
-0.599,-1.380,10.228,-27.439,-15.183,12.195
0.041,-1.644,10.026,-33.537,-14.268,13.232
-0.079,-1.584,10.441,-31.585,-4.329,10.366
-0.002,-1.460,10.759,-30.244,-2.134,10.122
0.303,-1.528,10.344,-31.524,-0.061,10.610
0.202,-1.560,10.060,-30.366,1.463,11.890
0.152,-1.407,10.233,-31.341,0.305,11.829
0.222,-1.195,10.505,-30.488,0.488,11.768
0.373,-1.313,9.954,-24.268,-0.244,13.110
0.143,-1.315,9.677,-26.220,-2.927,14.085
-0.056,-1.220,9.907,-25.305,0.976,14.695
0.532,-1.359,9.713,-20.793,7.134,12.683
0.539,-1.366,9.722,-19.695,6.768,11.707
0.204,-1.264,9.922,-17.866,4.085,15.488
0.253,-1.286,9.934,-15.183,7.195,18.659
0.372,-1.260,9.916,-12.988,14.085,16.463
0.194,-1.096,9.707,-10.183,16.890,15.244
0.162,-1.379,9.466,-7.134,16.707,16.037
0.095,-1.475,9.445,-6.159,17.561,15.000
0.373,-1.544,9.707,-5.549,12.134,15.000
0.743,-1.771,9.695,-6.768,1.463,15.854
0.598,-1.835,9.871,-7.744,-2.805,14.939
0.462,-1.635,10.385,-6.098,3.293,11.341
0.766,-1.672,10.274,1.098,7.683,10.793
1.117,-1.769,10.505,2.561,7.378,10.915
1.226,-1.653,10.649,7.012,6.402,10.976
0.852,-1.747,10.290,12.683,9.878,13.415
0.446,-1.900,10.229,17.378,16.220,14.329
0.389,-1.806,9.961,19.024,17.378,13.232
0.561,-1.781,9.723,15.915,9.817,15.061
0.842,-2.178,9.770,16.524,7.866,13.476
0.675,-2.084,10.133,20.244,13.841,7.988
0.648,-2.110,10.242,16.646,12.012,5.732
0.580,-1.860,10.211,19.695,12.012,4.878
0.271,-1.565,10.017,23.720,16.829,3.902
0.466,-1.569,9.668,27.744,19.817,6.159
0.764,-1.803,9.496,33.171,18.598,11.037
0.812,-1.981,9.524,33.902,11.585,10.671
0.700,-1.898,9.883,27.378,5.671,7.195
0.593,-1.911,10.415,25.671,7.683,5.793
0.700,-2.013,10.461,29.573,10.671,3.963
0.642,-1.835,10.375,29.817,10.000,0.427
0.490,-1.680,10.403,26.037,8.171,-3.110
0.650,-1.523,10.282,24.390,6.707,-5.976
0.562,-1.438,10.095,25.549,1.768,-3.963
0.543,-1.448,9.853,26.341,-2.195,-4.390
0.311,-1.383,9.567,25.793,-3.293,-5.122
0.102,-1.550,9.425,22.134,-1.768,-4.573
0.238,-1.435,9.509,21.524,0.488,-6.951
0.314,-1.363,9.502,20.366,-4.268,-6.890
0.050,-1.304,9.672,18.720,-7.866,-5.183
-0.044,-1.361,10.028,16.707,-3.537,-6.524
0.360,-1.453,9.971,19.695,1.098,-9.207
0.606,-1.499,9.799,21.098,-0.610,-9.695
0.548,-1.493,9.715,15.488,-4.085,-10.488
0.181,-1.391,9.632,13.720,-5.427,-11.341
-0.092,-1.347,9.588,14.451,-2.927,-12.561
-0.338,-1.146,9.533,17.256,-3.780,-11.890
-0.392,-1.165,9.612,10.366,-10.488,-9.390
-0.266,-1.193,9.756,6.159,-10.305,-9.634
-0.150,-0.870,10.155,6.890,-4.268,-10.732
0.117,-0.918,10.300,9.390,-0.732,-10.183
0.117,-0.940,10.605,8.720,1.220,-10.366
-0.093,-0.675,11.052,9.695,4.817,-11.037
-0.042,-0.763,10.754,13.415,7.866,-10.427
-0.117,-0.703,10.354,15.366,7.561,-10.671
-0.448,-0.513,10.270,12.012,0.549,-8.476
-0.845,-0.649,10.246,9.878,-8.171,-5.122
-1.217,-0.660,10.449,7.073,-11.402,-2.866
-0.857,-0.754,10.504,3.354,-5.976,-3.110
-0.655,-0.780,10.099,7.195,-0.549,-3.841
-0.678,-0.746,9.768,4.756,-3.293,-2.622
-0.982,-0.573,9.787,-5.793,-5.366,-1.402
-1.003,-0.558,9.880,-12.317,-3.232,-0.732
-0.670,-0.782,9.740,-15.244,-2.622,0.305
-0.213,-0.872,9.689,-13.598,-6.768,0.183
